onset	duration	sample	value	event_code	user_answer	correct_answer	target_count
0	n/a	0	break cnt	break cnt	n/a	n/a	8
81.024	n/a	40512	seqLearning_start	91	n/a	n/a	8
87.294	n/a	43647	learningBlock_1	31	n/a	n/a	8
87.318	n/a	43659	dot_no1_ON	11	n/a	n/a	8
87.906	n/a	43953	dot_no1_OFF	21	n/a	n/a	8
89.226	n/a	44613	dot_no6_ON	16	n/a	n/a	8
89.806	n/a	44903	dot_no6_OFF	26	n/a	n/a	8
91.126	n/a	45563	dot_no4_ON	14	n/a	n/a	8
91.706	n/a	45853	dot_no4_OFF	24	n/a	n/a	8
93.026	n/a	46513	dot_no2_ON	12	n/a	n/a	8
93.606	n/a	46803	dot_no2_OFF	22	n/a	n/a	8
94.926	n/a	47463	dot_no7_ON	17	n/a	n/a	8
95.506	n/a	47753	dot_no7_OFF	27	n/a	n/a	8
96.826	n/a	48413	dot_no3_ON	13	n/a	n/a	8
97.406	n/a	48703	dot_no3_OFF	23	n/a	n/a	8
98.726	n/a	49363	dot_no8_ON	18	n/a	n/a	8
99.306	n/a	49653	dot_no8_OFF	28	n/a	n/a	8
100.626	n/a	50313	dot_no5_ON	15	n/a	n/a	8
101.206	n/a	50603	dot_no5_OFF	25	n/a	n/a	8
102.526	n/a	51263	dot_no2_ON	12	n/a	n/a	8
103.106	n/a	51553	dot_no2_OFF	22	n/a	n/a	8
104.426	n/a	52213	dot_no7_ON	17	n/a	n/a	8
105.006	n/a	52503	dot_no7_OFF	27	1-5-4-8-6-2-7-3-2-7	1-6-4-2-7-3-8-5-2-7	8
151.876	n/a	75938	learningBlock_2	32	n/a	n/a	8
151.884	n/a	75942	dot_no1_ON	11	n/a	n/a	8
152.464	n/a	76232	dot_no1_OFF	21	n/a	n/a	8
153.784	n/a	76892	dot_no6_ON	16	n/a	n/a	8
154.364	n/a	77182	dot_no6_OFF	26	n/a	n/a	8
155.684	n/a	77842	dot_no4_ON	14	n/a	n/a	8
156.264	n/a	78132	dot_no4_OFF	24	n/a	n/a	8
157.584	n/a	78792	dot_no2_ON	12	n/a	n/a	8
158.164	n/a	79082	dot_no2_OFF	22	n/a	n/a	8
159.484	n/a	79742	dot_no7_ON	17	n/a	n/a	8
160.064	n/a	80032	dot_no7_OFF	27	n/a	n/a	8
161.384	n/a	80692	dot_no3_ON	13	n/a	n/a	8
161.964	n/a	80982	dot_no3_OFF	23	n/a	n/a	8
163.284	n/a	81642	dot_no8_ON	18	n/a	n/a	8
163.864	n/a	81932	dot_no8_OFF	28	n/a	n/a	8
165.184	n/a	82592	dot_no5_ON	15	n/a	n/a	8
165.764	n/a	82882	dot_no5_OFF	25	n/a	n/a	8
167.084	n/a	83542	dot_no2_ON	12	n/a	n/a	8
167.664	n/a	83832	dot_no2_OFF	22	n/a	n/a	8
168.984	n/a	84492	dot_no7_ON	17	n/a	n/a	8
169.564	n/a	84782	dot_no7_OFF	27	1-3-8-4-2-7-5-6-7-1	1-6-4-2-7-3-8-5-2-7	8
197.806	n/a	98903	learningBlock_3	33	n/a	n/a	8
197.814	n/a	98907	dot_no1_ON	11	n/a	n/a	8
198.394	n/a	99197	dot_no1_OFF	21	n/a	n/a	8
199.714	n/a	99857	dot_no6_ON	16	n/a	n/a	8
200.294	n/a	100147	dot_no6_OFF	26	n/a	n/a	8
201.614	n/a	100807	dot_no4_ON	14	n/a	n/a	8
202.194	n/a	101097	dot_no4_OFF	24	n/a	n/a	8
203.514	n/a	101757	dot_no2_ON	12	n/a	n/a	8
204.094	n/a	102047	dot_no2_OFF	22	n/a	n/a	8
205.414	n/a	102707	dot_no7_ON	17	n/a	n/a	8
205.994	n/a	102997	dot_no7_OFF	27	n/a	n/a	8
207.314	n/a	103657	dot_no3_ON	13	n/a	n/a	8
207.894	n/a	103947	dot_no3_OFF	23	n/a	n/a	8
209.214	n/a	104607	dot_no8_ON	18	n/a	n/a	8
209.794	n/a	104897	dot_no8_OFF	28	n/a	n/a	8
211.114	n/a	105557	dot_no5_ON	15	n/a	n/a	8
211.694	n/a	105847	dot_no5_OFF	25	n/a	n/a	8
213.014	n/a	106507	dot_no2_ON	12	n/a	n/a	8
213.594	n/a	106797	dot_no2_OFF	22	n/a	n/a	8
214.914	n/a	107457	dot_no7_ON	17	n/a	n/a	8
215.494	n/a	107747	dot_no7_OFF	27	1-6-2-4-4-8-7-3-3-5	1-6-4-2-7-3-8-5-2-7	8
261.656	n/a	130828	learningBlock_4	34	n/a	n/a	8
261.662	n/a	130831	dot_no1_ON	11	n/a	n/a	8
262.252	n/a	131126	dot_no1_OFF	21	n/a	n/a	8
263.572	n/a	131786	dot_no6_ON	16	n/a	n/a	8
264.154	n/a	132077	dot_no6_OFF	26	n/a	n/a	8
265.472	n/a	132736	dot_no4_ON	14	n/a	n/a	8
266.052	n/a	133026	dot_no4_OFF	24	n/a	n/a	8
267.372	n/a	133686	dot_no2_ON	12	n/a	n/a	8
267.952	n/a	133976	dot_no2_OFF	22	n/a	n/a	8
269.272	n/a	134636	dot_no7_ON	17	n/a	n/a	8
269.852	n/a	134926	dot_no7_OFF	27	n/a	n/a	8
271.172	n/a	135586	dot_no3_ON	13	n/a	n/a	8
271.752	n/a	135876	dot_no3_OFF	23	n/a	n/a	8
273.072	n/a	136536	dot_no8_ON	18	n/a	n/a	8
273.652	n/a	136826	dot_no8_OFF	28	n/a	n/a	8
274.972	n/a	137486	dot_no5_ON	15	n/a	n/a	8
275.562	n/a	137781	dot_no5_OFF	25	n/a	n/a	8
276.882	n/a	138441	dot_no2_ON	12	n/a	n/a	8
277.462	n/a	138731	dot_no2_OFF	22	n/a	n/a	8
278.782	n/a	139391	dot_no7_ON	17	n/a	n/a	8
279.362	n/a	139681	dot_no7_OFF	27	1-6-2-7-4-3-8-5-7-4	1-6-4-2-7-3-8-5-2-7	8
312.324	n/a	156162	learningBlock_5	35	n/a	n/a	8
312.332	n/a	156166	dot_no1_ON	11	n/a	n/a	8
312.912	n/a	156456	dot_no1_OFF	21	n/a	n/a	8
314.232	n/a	157116	dot_no6_ON	16	n/a	n/a	8
314.812	n/a	157406	dot_no6_OFF	26	n/a	n/a	8
316.132	n/a	158066	dot_no4_ON	14	n/a	n/a	8
316.712	n/a	158356	dot_no4_OFF	24	n/a	n/a	8
318.032	n/a	159016	dot_no2_ON	12	n/a	n/a	8
318.622	n/a	159311	dot_no2_OFF	22	n/a	n/a	8
319.942	n/a	159971	dot_no7_ON	17	n/a	n/a	8
320.522	n/a	160261	dot_no7_OFF	27	n/a	n/a	8
321.842	n/a	160921	dot_no3_ON	13	n/a	n/a	8
322.422	n/a	161211	dot_no3_OFF	23	n/a	n/a	8
323.74	n/a	161870	dot_no8_ON	18	n/a	n/a	8
324.32	n/a	162160	dot_no8_OFF	28	n/a	n/a	8
325.64	n/a	162820	dot_no5_ON	15	n/a	n/a	8
326.22	n/a	163110	dot_no5_OFF	25	n/a	n/a	8
327.542	n/a	163771	dot_no2_ON	12	n/a	n/a	8
328.12	n/a	164060	dot_no2_OFF	22	n/a	n/a	8
329.44	n/a	164720	dot_no7_ON	17	n/a	n/a	8
330.032	n/a	165016	dot_no7_OFF	27	1-4-3-7-8-6-5-2-1-7	1-6-4-2-7-3-8-5-2-7	8
360.194	n/a	180097	seqLearning_stop	50	n/a	n/a	8
367.013	n/a	183506.5	boundary	boundary	n/a	n/a	8
