onset	duration	sample	value	event_code	user_answer	correct_answer	target_count
0	n/a	0	break cnt	break cnt	n/a	n/a	6
35.238	n/a	17619	seqLearning_start	91	n/a	n/a	6
41.522	n/a	20761	learningBlock_1	31	n/a	n/a	6
41.548	n/a	20774	dot_no1_ON	11	n/a	n/a	6
42.138	n/a	21069	dot_no1_OFF	21	n/a	n/a	6
43.456	n/a	21728	dot_no6_ON	16	n/a	n/a	6
44.036	n/a	22018	dot_no6_OFF	26	n/a	n/a	6
45.356	n/a	22678	dot_no4_ON	14	n/a	n/a	6
45.936	n/a	22968	dot_no4_OFF	24	n/a	n/a	6
47.256	n/a	23628	dot_no2_ON	12	n/a	n/a	6
47.836	n/a	23918	dot_no2_OFF	22	n/a	n/a	6
49.156	n/a	24578	dot_no3_ON	13	n/a	n/a	6
49.736	n/a	24868	dot_no3_OFF	23	n/a	n/a	6
51.056	n/a	25528	dot_no5_ON	15	n/a	n/a	6
51.636	n/a	25818	dot_no5_OFF	25	n/a	n/a	6
52.956	n/a	26478	dot_no2_ON	12	n/a	n/a	6
53.536	n/a	26768	dot_no2_OFF	22	1-5-4-3-2-6-3	1-6-4-2-3-5-2	6
101.688	n/a	50844	learningBlock_2	32	n/a	n/a	6
101.696	n/a	50848	dot_no1_ON	11	n/a	n/a	6
102.286	n/a	51143	dot_no1_OFF	21	n/a	n/a	6
103.606	n/a	51803	dot_no6_ON	16	n/a	n/a	6
104.186	n/a	52093	dot_no6_OFF	26	n/a	n/a	6
105.506	n/a	52753	dot_no4_ON	14	n/a	n/a	6
106.086	n/a	53043	dot_no4_OFF	24	n/a	n/a	6
107.406	n/a	53703	dot_no2_ON	12	n/a	n/a	6
107.986	n/a	53993	dot_no2_OFF	22	n/a	n/a	6
109.306	n/a	54653	dot_no3_ON	13	n/a	n/a	6
109.886	n/a	54943	dot_no3_OFF	23	n/a	n/a	6
111.216	n/a	55608	dot_no5_ON	15	n/a	n/a	6
111.796	n/a	55898	dot_no5_OFF	25	n/a	n/a	6
113.116	n/a	56558	dot_no2_ON	12	n/a	n/a	6
113.696	n/a	56848	dot_no2_OFF	22	1-4-3-6-2-5-2	1-6-4-2-3-5-2	6
153.496	n/a	76748	learningBlock_3	33	n/a	n/a	6
153.504	n/a	76752	dot_no1_ON	11	n/a	n/a	6
154.084	n/a	77042	dot_no1_OFF	21	n/a	n/a	6
155.404	n/a	77702	dot_no6_ON	16	n/a	n/a	6
155.984	n/a	77992	dot_no6_OFF	26	n/a	n/a	6
157.304	n/a	78652	dot_no4_ON	14	n/a	n/a	6
157.884	n/a	78942	dot_no4_OFF	24	n/a	n/a	6
159.214	n/a	79607	dot_no2_ON	12	n/a	n/a	6
159.794	n/a	79897	dot_no2_OFF	22	n/a	n/a	6
161.114	n/a	80557	dot_no3_ON	13	n/a	n/a	6
161.694	n/a	80847	dot_no3_OFF	23	n/a	n/a	6
163.014	n/a	81507	dot_no5_ON	15	n/a	n/a	6
163.594	n/a	81797	dot_no5_OFF	25	n/a	n/a	6
164.914	n/a	82457	dot_no2_ON	12	n/a	n/a	6
165.494	n/a	82747	dot_no2_OFF	22	1-6-4-5-2-3-2	1-6-4-2-3-5-2	6
203.226	n/a	101613	learningBlock_4	34	n/a	n/a	6
203.234	n/a	101617	dot_no1_ON	11	n/a	n/a	6
203.814	n/a	101907	dot_no1_OFF	21	n/a	n/a	6
205.134	n/a	102567	dot_no6_ON	16	n/a	n/a	6
205.714	n/a	102857	dot_no6_OFF	26	n/a	n/a	6
207.034	n/a	103517	dot_no4_ON	14	n/a	n/a	6
207.614	n/a	103807	dot_no4_OFF	24	n/a	n/a	6
208.934	n/a	104467	dot_no2_ON	12	n/a	n/a	6
209.514	n/a	104757	dot_no2_OFF	22	n/a	n/a	6
210.834	n/a	105417	dot_no3_ON	13	n/a	n/a	6
211.414	n/a	105707	dot_no3_OFF	23	n/a	n/a	6
212.734	n/a	106367	dot_no5_ON	15	n/a	n/a	6
213.314	n/a	106657	dot_no5_OFF	25	n/a	n/a	6
214.634	n/a	107317	dot_no2_ON	12	n/a	n/a	6
215.214	n/a	107607	dot_no2_OFF	22	1-6-4-3-5-2-5	1-6-4-2-3-5-2	6
263.594	n/a	131797	learningBlock_5	35	n/a	n/a	6
263.602	n/a	131801	dot_no1_ON	11	n/a	n/a	6
264.182	n/a	132091	dot_no1_OFF	21	n/a	n/a	6
265.502	n/a	132751	dot_no6_ON	16	n/a	n/a	6
266.092	n/a	133046	dot_no6_OFF	26	n/a	n/a	6
267.412	n/a	133706	dot_no4_ON	14	n/a	n/a	6
267.992	n/a	133996	dot_no4_OFF	24	n/a	n/a	6
269.312	n/a	134656	dot_no2_ON	12	n/a	n/a	6
269.892	n/a	134946	dot_no2_OFF	22	n/a	n/a	6
271.212	n/a	135606	dot_no3_ON	13	n/a	n/a	6
271.792	n/a	135896	dot_no3_OFF	23	n/a	n/a	6
273.112	n/a	136556	dot_no5_ON	15	n/a	n/a	6
273.692	n/a	136846	dot_no5_OFF	25	n/a	n/a	6
275.012	n/a	137506	dot_no2_ON	12	n/a	n/a	6
275.592	n/a	137796	dot_no2_OFF	22	1-6-4-3-5-2-3	1-6-4-2-3-5-2	6
309.764	n/a	154882	seqLearning_stop	50	n/a	n/a	6
317.073	n/a	158536.5	boundary	boundary	n/a	n/a	6
