onset	duration	sample	value	event_code	user_answer	correct_answer	target_count
0	n/a	0	break cnt	break cnt	n/a	n/a	8
25.824	n/a	12912	seqLearning_start	91	n/a	n/a	8
32.098	n/a	16049	learningBlock_1	31	n/a	n/a	8
32.13	n/a	16065	dot_no1_ON	11	n/a	n/a	8
32.72	n/a	16360	dot_no1_OFF	21	n/a	n/a	8
34.04	n/a	17020	dot_no6_ON	16	n/a	n/a	8
34.62	n/a	17310	dot_no6_OFF	26	n/a	n/a	8
35.94	n/a	17970	dot_no4_ON	14	n/a	n/a	8
36.52	n/a	18260	dot_no4_OFF	24	n/a	n/a	8
37.84	n/a	18920	dot_no2_ON	12	n/a	n/a	8
38.42	n/a	19210	dot_no2_OFF	22	n/a	n/a	8
39.74	n/a	19870	dot_no7_ON	17	n/a	n/a	8
40.32	n/a	20160	dot_no7_OFF	27	n/a	n/a	8
41.64	n/a	20820	dot_no3_ON	13	n/a	n/a	8
42.22	n/a	21110	dot_no3_OFF	23	n/a	n/a	8
43.54	n/a	21770	dot_no8_ON	18	n/a	n/a	8
44.12	n/a	22060	dot_no8_OFF	28	n/a	n/a	8
45.44	n/a	22720	dot_no5_ON	15	n/a	n/a	8
46.02	n/a	23010	dot_no5_OFF	25	n/a	n/a	8
47.34	n/a	23670	dot_no2_ON	12	n/a	n/a	8
47.92	n/a	23960	dot_no2_OFF	22	n/a	n/a	8
49.24	n/a	24620	dot_no7_ON	17	n/a	n/a	8
49.82	n/a	24910	dot_no7_OFF	27	1-6-4-8-3-2-7-5-3-5	1-6-4-2-7-3-8-5-2-7	8
122.732	n/a	61366	learningBlock_2	32	n/a	n/a	8
122.742	n/a	61371	dot_no1_ON	11	n/a	n/a	8
123.332	n/a	61666	dot_no1_OFF	21	n/a	n/a	8
124.662	n/a	62331	dot_no6_ON	16	n/a	n/a	8
125.242	n/a	62621	dot_no6_OFF	26	n/a	n/a	8
126.562	n/a	63281	dot_no4_ON	14	n/a	n/a	8
127.142	n/a	63571	dot_no4_OFF	24	n/a	n/a	8
128.462	n/a	64231	dot_no2_ON	12	n/a	n/a	8
129.042	n/a	64521	dot_no2_OFF	22	n/a	n/a	8
130.362	n/a	65181	dot_no7_ON	17	n/a	n/a	8
130.942	n/a	65471	dot_no7_OFF	27	n/a	n/a	8
132.262	n/a	66131	dot_no3_ON	13	n/a	n/a	8
132.842	n/a	66421	dot_no3_OFF	23	n/a	n/a	8
134.162	n/a	67081	dot_no8_ON	18	n/a	n/a	8
134.742	n/a	67371	dot_no8_OFF	28	n/a	n/a	8
136.062	n/a	68031	dot_no5_ON	15	n/a	n/a	8
136.642	n/a	68321	dot_no5_OFF	25	n/a	n/a	8
137.962	n/a	68981	dot_no2_ON	12	n/a	n/a	8
138.552	n/a	69276	dot_no2_OFF	22	n/a	n/a	8
139.872	n/a	69936	dot_no7_ON	17	n/a	n/a	8
140.452	n/a	70226	dot_no7_OFF	27	8-6-4-2-3-3-7-1-5-7	1-6-4-2-7-3-8-5-2-7	8
185.674	n/a	92837	learningBlock_3	33	n/a	n/a	8
185.682	n/a	92841	dot_no1_ON	11	n/a	n/a	8
186.262	n/a	93131	dot_no1_OFF	21	n/a	n/a	8
187.582	n/a	93791	dot_no6_ON	16	n/a	n/a	8
188.162	n/a	94081	dot_no6_OFF	26	n/a	n/a	8
189.482	n/a	94741	dot_no4_ON	14	n/a	n/a	8
241.684	n/a	120842	dot_no4_OFF	24	n/a	n/a	8
243.004	n/a	121502	dot_no2_ON	12	n/a	n/a	8
243.584	n/a	121792	dot_no2_OFF	22	n/a	n/a	8
244.904	n/a	122452	dot_no7_ON	17	n/a	n/a	8
245.484	n/a	122742	dot_no7_OFF	27	n/a	n/a	8
246.804	n/a	123402	dot_no3_ON	13	n/a	n/a	8
247.384	n/a	123692	dot_no3_OFF	23	n/a	n/a	8
248.704	n/a	124352	dot_no8_ON	18	n/a	n/a	8
249.284	n/a	124642	dot_no8_OFF	28	n/a	n/a	8
250.604	n/a	125302	dot_no5_ON	15	n/a	n/a	8
251.184	n/a	125592	dot_no5_OFF	25	n/a	n/a	8
252.504	n/a	126252	dot_no2_ON	12	n/a	n/a	8
253.084	n/a	126542	dot_no2_OFF	22	n/a	n/a	8
254.404	n/a	127202	dot_no7_ON	17	n/a	n/a	8
254.984	n/a	127492	dot_no7_OFF	27	1-6-4-2-7-5-8-2-3-7	1-6-4-2-7-3-8-5-2-7	8
280.138	n/a	140069	learningBlock_4	34	n/a	n/a	8
280.144	n/a	140072	dot_no1_ON	11	n/a	n/a	8
280.726	n/a	140363	dot_no1_OFF	21	n/a	n/a	8
282.046	n/a	141023	dot_no6_ON	16	n/a	n/a	8
282.626	n/a	141313	dot_no6_OFF	26	n/a	n/a	8
283.946	n/a	141973	dot_no4_ON	14	n/a	n/a	8
284.526	n/a	142263	dot_no4_OFF	24	n/a	n/a	8
285.846	n/a	142923	dot_no2_ON	12	n/a	n/a	8
286.426	n/a	143213	dot_no2_OFF	22	n/a	n/a	8
287.746	n/a	143873	dot_no7_ON	17	n/a	n/a	8
288.326	n/a	144163	dot_no7_OFF	27	n/a	n/a	8
289.646	n/a	144823	dot_no3_ON	13	n/a	n/a	8
290.226	n/a	145113	dot_no3_OFF	23	n/a	n/a	8
291.546	n/a	145773	dot_no8_ON	18	n/a	n/a	8
292.126	n/a	146063	dot_no8_OFF	28	n/a	n/a	8
293.446	n/a	146723	dot_no5_ON	15	n/a	n/a	8
294.036	n/a	147018	dot_no5_OFF	25	n/a	n/a	8
295.356	n/a	147678	dot_no2_ON	12	n/a	n/a	8
295.936	n/a	147968	dot_no2_OFF	22	n/a	n/a	8
297.256	n/a	148628	dot_no7_ON	17	n/a	n/a	8
297.836	n/a	148918	dot_no7_OFF	27	1-5-6-5-5-6-5-2-3-4	1-6-4-2-7-3-8-5-2-7	8
336.46	n/a	168230	learningBlock_5	35	n/a	n/a	8
336.466	n/a	168233	dot_no1_ON	11	n/a	n/a	8
337.046	n/a	168523	dot_no1_OFF	21	n/a	n/a	8
338.366	n/a	169183	dot_no6_ON	16	n/a	n/a	8
338.946	n/a	169473	dot_no6_OFF	26	n/a	n/a	8
340.266	n/a	170133	dot_no4_ON	14	n/a	n/a	8
340.846	n/a	170423	dot_no4_OFF	24	n/a	n/a	8
342.166	n/a	171083	dot_no2_ON	12	n/a	n/a	8
342.746	n/a	171373	dot_no2_OFF	22	n/a	n/a	8
344.066	n/a	172033	dot_no7_ON	17	n/a	n/a	8
344.646	n/a	172323	dot_no7_OFF	27	n/a	n/a	8
345.966	n/a	172983	dot_no3_ON	13	n/a	n/a	8
346.546	n/a	173273	dot_no3_OFF	23	n/a	n/a	8
347.866	n/a	173933	dot_no8_ON	18	n/a	n/a	8
348.446	n/a	174223	dot_no8_OFF	28	n/a	n/a	8
349.766	n/a	174883	dot_no5_ON	15	n/a	n/a	8
350.346	n/a	175173	dot_no5_OFF	25	n/a	n/a	8
351.666	n/a	175833	dot_no2_ON	12	n/a	n/a	8
352.246	n/a	176123	dot_no2_OFF	22	n/a	n/a	8
353.566	n/a	176783	dot_no7_ON	17	n/a	n/a	8
354.156	n/a	177078	dot_no7_OFF	27	1-6-4-2-7-3-2-8-3-5	1-6-4-2-7-3-8-5-2-7	8
380.86	n/a	190430	seqLearning_stop	50	n/a	n/a	8
387.167	n/a	193583.5	boundary	boundary	n/a	n/a	8
