onset	duration	sample	value	event_code	user_answer	correct_answer	target_count
0	n/a	0	break cnt	break cnt	n/a	n/a	8
29.844	n/a	14922	seqLearning_start	91	n/a	n/a	8
36.13	n/a	18065	learningBlock_1	31	n/a	n/a	8
36.156	n/a	18078	dot_no1_ON	11	n/a	n/a	8
36.744	n/a	18372	dot_no1_OFF	21	n/a	n/a	8
38.064	n/a	19032	dot_no6_ON	16	n/a	n/a	8
38.654	n/a	19327	dot_no6_OFF	26	n/a	n/a	8
39.974	n/a	19987	dot_no4_ON	14	n/a	n/a	8
40.554	n/a	20277	dot_no4_OFF	24	n/a	n/a	8
41.874	n/a	20937	dot_no2_ON	12	n/a	n/a	8
42.464	n/a	21232	dot_no2_OFF	22	n/a	n/a	8
43.784	n/a	21892	dot_no7_ON	17	n/a	n/a	8
44.364	n/a	22182	dot_no7_OFF	27	n/a	n/a	8
45.684	n/a	22842	dot_no3_ON	13	n/a	n/a	8
46.264	n/a	23132	dot_no3_OFF	23	n/a	n/a	8
47.584	n/a	23792	dot_no8_ON	18	n/a	n/a	8
48.164	n/a	24082	dot_no8_OFF	28	n/a	n/a	8
49.484	n/a	24742	dot_no5_ON	15	n/a	n/a	8
50.064	n/a	25032	dot_no5_OFF	25	n/a	n/a	8
51.384	n/a	25692	dot_no2_ON	12	n/a	n/a	8
51.964	n/a	25982	dot_no2_OFF	22	n/a	n/a	8
53.284	n/a	26642	dot_no7_ON	17	n/a	n/a	8
53.874	n/a	26937	dot_no7_OFF	27	1-5-7-2-4-8-5-7-2-3	1-6-4-2-7-3-8-5-2-7	8
86.938	n/a	43469	learningBlock_2	32	n/a	n/a	8
86.946	n/a	43473	dot_no1_ON	11	n/a	n/a	8
87.536	n/a	43768	dot_no1_OFF	21	n/a	n/a	8
88.856	n/a	44428	dot_no6_ON	16	n/a	n/a	8
89.446	n/a	44723	dot_no6_OFF	26	n/a	n/a	8
90.766	n/a	45383	dot_no4_ON	14	n/a	n/a	8
91.356	n/a	45678	dot_no4_OFF	24	n/a	n/a	8
92.676	n/a	46338	dot_no2_ON	12	n/a	n/a	8
93.256	n/a	46628	dot_no2_OFF	22	n/a	n/a	8
94.576	n/a	47288	dot_no7_ON	17	n/a	n/a	8
95.166	n/a	47583	dot_no7_OFF	27	n/a	n/a	8
96.486	n/a	48243	dot_no3_ON	13	n/a	n/a	8
97.076	n/a	48538	dot_no3_OFF	23	n/a	n/a	8
98.396	n/a	49198	dot_no8_ON	18	n/a	n/a	8
98.976	n/a	49488	dot_no8_OFF	28	n/a	n/a	8
100.296	n/a	50148	dot_no5_ON	15	n/a	n/a	8
100.886	n/a	50443	dot_no5_OFF	25	n/a	n/a	8
102.206	n/a	51103	dot_no2_ON	12	n/a	n/a	8
102.786	n/a	51393	dot_no2_OFF	22	n/a	n/a	8
104.106	n/a	52053	dot_no7_ON	17	n/a	n/a	8
104.686	n/a	52343	dot_no7_OFF	27	1-5-8-2-6-3-8-4-7-2	1-6-4-2-7-3-8-5-2-7	8
136.288	n/a	68144	learningBlock_3	33	n/a	n/a	8
136.298	n/a	68149	dot_no1_ON	11	n/a	n/a	8
136.878	n/a	68439	dot_no1_OFF	21	n/a	n/a	8
138.198	n/a	69099	dot_no6_ON	16	n/a	n/a	8
138.778	n/a	69389	dot_no6_OFF	26	n/a	n/a	8
140.098	n/a	70049	dot_no4_ON	14	n/a	n/a	8
140.688	n/a	70344	dot_no4_OFF	24	n/a	n/a	8
142.008	n/a	71004	dot_no2_ON	12	n/a	n/a	8
142.588	n/a	71294	dot_no2_OFF	22	n/a	n/a	8
143.908	n/a	71954	dot_no7_ON	17	n/a	n/a	8
144.498	n/a	72249	dot_no7_OFF	27	n/a	n/a	8
145.818	n/a	72909	dot_no3_ON	13	n/a	n/a	8
146.398	n/a	73199	dot_no3_OFF	23	n/a	n/a	8
147.718	n/a	73859	dot_no8_ON	18	n/a	n/a	8
148.298	n/a	74149	dot_no8_OFF	28	n/a	n/a	8
149.618	n/a	74809	dot_no5_ON	15	n/a	n/a	8
150.208	n/a	75104	dot_no5_OFF	25	n/a	n/a	8
151.528	n/a	75764	dot_no2_ON	12	n/a	n/a	8
152.118	n/a	76059	dot_no2_OFF	22	n/a	n/a	8
153.438	n/a	76719	dot_no7_ON	17	n/a	n/a	8
154.018	n/a	77009	dot_no7_OFF	27	1-5-3-2-6-3-4-7-8-5	1-6-4-2-7-3-8-5-2-7	8
179.76	n/a	89880	learningBlock_4	34	n/a	n/a	8
179.77	n/a	89885	dot_no1_ON	11	n/a	n/a	8
180.348	n/a	90174	dot_no1_OFF	21	n/a	n/a	8
181.67	n/a	90835	dot_no6_ON	16	n/a	n/a	8
182.258	n/a	91129	dot_no6_OFF	26	n/a	n/a	8
183.58	n/a	91790	dot_no4_ON	14	n/a	n/a	8
184.158	n/a	92079	dot_no4_OFF	24	n/a	n/a	8
185.48	n/a	92740	dot_no2_ON	12	n/a	n/a	8
186.058	n/a	93029	dot_no2_OFF	22	n/a	n/a	8
187.38	n/a	93690	dot_no7_ON	17	n/a	n/a	8
187.968	n/a	93984	dot_no7_OFF	27	n/a	n/a	8
189.29	n/a	94645	dot_no3_ON	13	n/a	n/a	8
189.88	n/a	94940	dot_no3_OFF	23	n/a	n/a	8
191.2	n/a	95600	dot_no8_ON	18	n/a	n/a	8
191.78	n/a	95890	dot_no8_OFF	28	n/a	n/a	8
193.1	n/a	96550	dot_no5_ON	15	n/a	n/a	8
193.68	n/a	96840	dot_no5_OFF	25	n/a	n/a	8
195	n/a	97500	dot_no2_ON	12	n/a	n/a	8
195.58	n/a	97790	dot_no2_OFF	22	n/a	n/a	8
196.9	n/a	98450	dot_no7_ON	17	n/a	n/a	8
197.48	n/a	98740	dot_no7_OFF	27	1-6-4-2-5-1-8-3-7-1	1-6-4-2-7-3-8-5-2-7	8
228.232	n/a	114116	learningBlock_5	35	n/a	n/a	8
228.24	n/a	114120	dot_no1_ON	11	n/a	n/a	8
228.82	n/a	114410	dot_no1_OFF	21	n/a	n/a	8
230.14	n/a	115070	dot_no6_ON	16	n/a	n/a	8
230.72	n/a	115360	dot_no6_OFF	26	n/a	n/a	8
232.04	n/a	116020	dot_no4_ON	14	n/a	n/a	8
232.62	n/a	116310	dot_no4_OFF	24	n/a	n/a	8
233.942	n/a	116971	dot_no2_ON	12	n/a	n/a	8
234.53	n/a	117265	dot_no2_OFF	22	n/a	n/a	8
235.85	n/a	117925	dot_no7_ON	17	n/a	n/a	8
236.43	n/a	118215	dot_no7_OFF	27	n/a	n/a	8
237.752	n/a	118876	dot_no3_ON	13	n/a	n/a	8
238.34	n/a	119170	dot_no3_OFF	23	n/a	n/a	8
239.662	n/a	119831	dot_no8_ON	18	n/a	n/a	8
240.24	n/a	120120	dot_no8_OFF	28	n/a	n/a	8
241.562	n/a	120781	dot_no5_ON	15	n/a	n/a	8
242.15	n/a	121075	dot_no5_OFF	25	n/a	n/a	8
243.472	n/a	121736	dot_no2_ON	12	n/a	n/a	8
244.05	n/a	122025	dot_no2_OFF	22	n/a	n/a	8
245.372	n/a	122686	dot_no7_ON	17	n/a	n/a	8
245.96	n/a	122980	dot_no7_OFF	27	1-5-3-2-7-4-7-2-8-7	1-6-4-2-7-3-8-5-2-7	8
270.234	n/a	135117	seqLearning_stop	50	n/a	n/a	8
270.879	n/a	135439.5	boundary	boundary	n/a	n/a	8
