onset	duration	sample	value	event_code	user_answer	correct_answer	target_count
0	n/a	0	break cnt	break cnt	n/a	n/a	6
32.424	n/a	16212	seqLearning_start	91	n/a	n/a	6
38.704	n/a	19352	learningBlock_1	31	n/a	n/a	6
38.734	n/a	19367	dot_no1_ON	11	n/a	n/a	6
39.322	n/a	19661	dot_no1_OFF	21	n/a	n/a	6
40.642	n/a	20321	dot_no6_ON	16	n/a	n/a	6
41.222	n/a	20611	dot_no6_OFF	26	n/a	n/a	6
42.542	n/a	21271	dot_no4_ON	14	n/a	n/a	6
43.122	n/a	21561	dot_no4_OFF	24	n/a	n/a	6
44.442	n/a	22221	dot_no2_ON	12	n/a	n/a	6
45.022	n/a	22511	dot_no2_OFF	22	n/a	n/a	6
46.342	n/a	23171	dot_no3_ON	13	n/a	n/a	6
46.922	n/a	23461	dot_no3_OFF	23	n/a	n/a	6
48.242	n/a	24121	dot_no5_ON	15	n/a	n/a	6
48.822	n/a	24411	dot_no5_OFF	25	n/a	n/a	6
50.142	n/a	25071	dot_no2_ON	12	n/a	n/a	6
50.722	n/a	25361	dot_no2_OFF	22	1-4-6-3-2-5-2	1-6-4-2-3-5-2	6
78.484	n/a	39242	learningBlock_2	32	n/a	n/a	6
78.492	n/a	39246	dot_no1_ON	11	n/a	n/a	6
79.072	n/a	39536	dot_no1_OFF	21	n/a	n/a	6
80.392	n/a	40196	dot_no6_ON	16	n/a	n/a	6
80.972	n/a	40486	dot_no6_OFF	26	n/a	n/a	6
82.292	n/a	41146	dot_no4_ON	14	n/a	n/a	6
82.872	n/a	41436	dot_no4_OFF	24	n/a	n/a	6
84.192	n/a	42096	dot_no2_ON	12	n/a	n/a	6
84.772	n/a	42386	dot_no2_OFF	22	n/a	n/a	6
86.094	n/a	43047	dot_no3_ON	13	n/a	n/a	6
86.682	n/a	43341	dot_no3_OFF	23	n/a	n/a	6
88.004	n/a	44002	dot_no5_ON	15	n/a	n/a	6
88.594	n/a	44297	dot_no5_OFF	25	n/a	n/a	6
89.914	n/a	44957	dot_no2_ON	12	n/a	n/a	6
90.494	n/a	45247	dot_no2_OFF	22	1-6-4-3-2-5-2	1-6-4-2-3-5-2	6
115.806	n/a	57903	learningBlock_3	33	n/a	n/a	6
115.814	n/a	57907	dot_no1_ON	11	n/a	n/a	6
116.404	n/a	58202	dot_no1_OFF	21	n/a	n/a	6
117.724	n/a	58862	dot_no6_ON	16	n/a	n/a	6
118.314	n/a	59157	dot_no6_OFF	26	n/a	n/a	6
119.634	n/a	59817	dot_no4_ON	14	n/a	n/a	6
120.224	n/a	60112	dot_no4_OFF	24	n/a	n/a	6
121.544	n/a	60772	dot_no2_ON	12	n/a	n/a	6
122.124	n/a	61062	dot_no2_OFF	22	n/a	n/a	6
123.444	n/a	61722	dot_no3_ON	13	n/a	n/a	6
124.034	n/a	62017	dot_no3_OFF	23	n/a	n/a	6
125.354	n/a	62677	dot_no5_ON	15	n/a	n/a	6
125.934	n/a	62967	dot_no5_OFF	25	n/a	n/a	6
127.254	n/a	63627	dot_no2_ON	12	n/a	n/a	6
127.844	n/a	63922	dot_no2_OFF	22	1-4-6-3-2-5-2	1-6-4-2-3-5-2	6
156.186	n/a	78093	learningBlock_4	34	n/a	n/a	6
156.196	n/a	78098	dot_no1_ON	11	n/a	n/a	6
156.776	n/a	78388	dot_no1_OFF	21	n/a	n/a	6
158.096	n/a	79048	dot_no6_ON	16	n/a	n/a	6
158.676	n/a	79338	dot_no6_OFF	26	n/a	n/a	6
159.996	n/a	79998	dot_no4_ON	14	n/a	n/a	6
160.576	n/a	80288	dot_no4_OFF	24	n/a	n/a	6
161.896	n/a	80948	dot_no2_ON	12	n/a	n/a	6
162.476	n/a	81238	dot_no2_OFF	22	n/a	n/a	6
163.796	n/a	81898	dot_no3_ON	13	n/a	n/a	6
164.376	n/a	82188	dot_no3_OFF	23	n/a	n/a	6
165.696	n/a	82848	dot_no5_ON	15	n/a	n/a	6
166.286	n/a	83143	dot_no5_OFF	25	n/a	n/a	6
167.606	n/a	83803	dot_no2_ON	12	n/a	n/a	6
168.186	n/a	84093	dot_no2_OFF	22	1-6-5-4-3-2-5	1-6-4-2-3-5-2	6
192.898	n/a	96449	learningBlock_5	35	n/a	n/a	6
192.906	n/a	96453	dot_no1_ON	11	n/a	n/a	6
193.486	n/a	96743	dot_no1_OFF	21	n/a	n/a	6
194.808	n/a	97404	dot_no6_ON	16	n/a	n/a	6
195.386	n/a	97693	dot_no6_OFF	26	n/a	n/a	6
196.706	n/a	98353	dot_no4_ON	14	n/a	n/a	6
197.296	n/a	98648	dot_no4_OFF	24	n/a	n/a	6
198.616	n/a	99308	dot_no2_ON	12	n/a	n/a	6
199.196	n/a	99598	dot_no2_OFF	22	n/a	n/a	6
200.516	n/a	100258	dot_no3_ON	13	n/a	n/a	6
201.096	n/a	100548	dot_no3_OFF	23	n/a	n/a	6
202.416	n/a	101208	dot_no5_ON	15	n/a	n/a	6
202.996	n/a	101498	dot_no5_OFF	25	n/a	n/a	6
204.318	n/a	102159	dot_no2_ON	12	n/a	n/a	6
204.896	n/a	102448	dot_no2_OFF	22	1-6-4-5-3-2-5	1-6-4-2-3-5-2	6
223.72	n/a	111860	seqLearning_stop	50	n/a	n/a	6
224.339	n/a	112169.5	boundary	boundary	n/a	n/a	6
