onset	duration	sample	value	event_code	user_answer	correct_answer	target_count
0	n/a	0	break cnt	break cnt	n/a	n/a	8
36.576	n/a	18288	seqLearning_start	91	n/a	n/a	8
42.838	n/a	21419	learningBlock_1	31	n/a	n/a	8
42.864	n/a	21432	dot_no1_ON	11	n/a	n/a	8
43.454	n/a	21727	dot_no1_OFF	21	n/a	n/a	8
44.774	n/a	22387	dot_no6_ON	16	n/a	n/a	8
45.364	n/a	22682	dot_no6_OFF	26	n/a	n/a	8
46.684	n/a	23342	dot_no4_ON	14	n/a	n/a	8
47.264	n/a	23632	dot_no4_OFF	24	n/a	n/a	8
48.584	n/a	24292	dot_no2_ON	12	n/a	n/a	8
49.164	n/a	24582	dot_no2_OFF	22	n/a	n/a	8
50.484	n/a	25242	dot_no7_ON	17	n/a	n/a	8
51.064	n/a	25532	dot_no7_OFF	27	n/a	n/a	8
52.384	n/a	26192	dot_no3_ON	13	n/a	n/a	8
52.964	n/a	26482	dot_no3_OFF	23	n/a	n/a	8
54.284	n/a	27142	dot_no8_ON	18	n/a	n/a	8
54.864	n/a	27432	dot_no8_OFF	28	n/a	n/a	8
56.184	n/a	28092	dot_no5_ON	15	n/a	n/a	8
56.764	n/a	28382	dot_no5_OFF	25	n/a	n/a	8
58.084	n/a	29042	dot_no2_ON	12	n/a	n/a	8
58.664	n/a	29332	dot_no2_OFF	22	n/a	n/a	8
59.984	n/a	29992	dot_no7_ON	17	n/a	n/a	8
60.574	n/a	30287	dot_no7_OFF	27	8-2-6-4-8-2-5-3-1-6	1-6-4-2-7-3-8-5-2-7	8
101.086	n/a	50543	learningBlock_2	32	n/a	n/a	8
101.094	n/a	50547	dot_no1_ON	11	n/a	n/a	8
101.684	n/a	50842	dot_no1_OFF	21	n/a	n/a	8
103.004	n/a	51502	dot_no6_ON	16	n/a	n/a	8
103.584	n/a	51792	dot_no6_OFF	26	n/a	n/a	8
104.904	n/a	52452	dot_no4_ON	14	n/a	n/a	8
105.486	n/a	52743	dot_no4_OFF	24	n/a	n/a	8
106.804	n/a	53402	dot_no2_ON	12	n/a	n/a	8
107.384	n/a	53692	dot_no2_OFF	22	n/a	n/a	8
108.706	n/a	54353	dot_no7_ON	17	n/a	n/a	8
109.286	n/a	54643	dot_no7_OFF	27	n/a	n/a	8
110.606	n/a	55303	dot_no3_ON	13	n/a	n/a	8
111.186	n/a	55593	dot_no3_OFF	23	n/a	n/a	8
112.506	n/a	56253	dot_no8_ON	18	n/a	n/a	8
113.086	n/a	56543	dot_no8_OFF	28	n/a	n/a	8
114.406	n/a	57203	dot_no5_ON	15	n/a	n/a	8
114.986	n/a	57493	dot_no5_OFF	25	n/a	n/a	8
116.306	n/a	58153	dot_no2_ON	12	n/a	n/a	8
116.886	n/a	58443	dot_no2_OFF	22	n/a	n/a	8
118.206	n/a	59103	dot_no7_ON	17	n/a	n/a	8
118.786	n/a	59393	dot_no7_OFF	27	6-4-2-1-7-3-2-7-6-2	1-6-4-2-7-3-8-5-2-7	8
141.158	n/a	70579	learningBlock_3	33	n/a	n/a	8
141.166	n/a	70583	dot_no1_ON	11	n/a	n/a	8
141.746	n/a	70873	dot_no1_OFF	21	n/a	n/a	8
143.066	n/a	71533	dot_no6_ON	16	n/a	n/a	8
143.646	n/a	71823	dot_no6_OFF	26	n/a	n/a	8
144.966	n/a	72483	dot_no4_ON	14	n/a	n/a	8
145.546	n/a	72773	dot_no4_OFF	24	n/a	n/a	8
146.866	n/a	73433	dot_no2_ON	12	n/a	n/a	8
147.446	n/a	73723	dot_no2_OFF	22	n/a	n/a	8
148.766	n/a	74383	dot_no7_ON	17	n/a	n/a	8
149.346	n/a	74673	dot_no7_OFF	27	n/a	n/a	8
150.666	n/a	75333	dot_no3_ON	13	n/a	n/a	8
151.246	n/a	75623	dot_no3_OFF	23	n/a	n/a	8
152.566	n/a	76283	dot_no8_ON	18	n/a	n/a	8
153.146	n/a	76573	dot_no8_OFF	28	n/a	n/a	8
154.466	n/a	77233	dot_no5_ON	15	n/a	n/a	8
155.046	n/a	77523	dot_no5_OFF	25	n/a	n/a	8
156.366	n/a	78183	dot_no2_ON	12	n/a	n/a	8
156.946	n/a	78473	dot_no2_OFF	22	n/a	n/a	8
158.266	n/a	79133	dot_no7_ON	17	n/a	n/a	8
158.846	n/a	79423	dot_no7_OFF	27	6-2-4-1-7-5-3-2-6-1	1-6-4-2-7-3-8-5-2-7	8
181.108	n/a	90554	learningBlock_4	34	n/a	n/a	8
181.116	n/a	90558	dot_no1_ON	11	n/a	n/a	8
181.696	n/a	90848	dot_no1_OFF	21	n/a	n/a	8
183.016	n/a	91508	dot_no6_ON	16	n/a	n/a	8
183.596	n/a	91798	dot_no6_OFF	26	n/a	n/a	8
184.916	n/a	92458	dot_no4_ON	14	n/a	n/a	8
185.496	n/a	92748	dot_no4_OFF	24	n/a	n/a	8
186.818	n/a	93409	dot_no2_ON	12	n/a	n/a	8
187.396	n/a	93698	dot_no2_OFF	22	n/a	n/a	8
188.716	n/a	94358	dot_no7_ON	17	n/a	n/a	8
189.298	n/a	94649	dot_no7_OFF	27	n/a	n/a	8
190.616	n/a	95308	dot_no3_ON	13	n/a	n/a	8
191.196	n/a	95598	dot_no3_OFF	23	n/a	n/a	8
192.516	n/a	96258	dot_no8_ON	18	n/a	n/a	8
193.098	n/a	96549	dot_no8_OFF	28	n/a	n/a	8
194.418	n/a	97209	dot_no5_ON	15	n/a	n/a	8
195.008	n/a	97504	dot_no5_OFF	25	n/a	n/a	8
196.328	n/a	98164	dot_no2_ON	12	n/a	n/a	8
196.908	n/a	98454	dot_no2_OFF	22	n/a	n/a	8
198.228	n/a	99114	dot_no7_ON	17	n/a	n/a	8
198.808	n/a	99404	dot_no7_OFF	27	6-4-2-7-8-4-8-2-6-3	1-6-4-2-7-3-8-5-2-7	8
223.53	n/a	111765	learningBlock_5	35	n/a	n/a	8
223.538	n/a	111769	dot_no1_ON	11	n/a	n/a	8
224.128	n/a	112064	dot_no1_OFF	21	n/a	n/a	8
225.448	n/a	112724	dot_no6_ON	16	n/a	n/a	8
226.028	n/a	113014	dot_no6_OFF	26	n/a	n/a	8
227.348	n/a	113674	dot_no4_ON	14	n/a	n/a	8
227.928	n/a	113964	dot_no4_OFF	24	n/a	n/a	8
229.248	n/a	114624	dot_no2_ON	12	n/a	n/a	8
229.828	n/a	114914	dot_no2_OFF	22	n/a	n/a	8
231.148	n/a	115574	dot_no7_ON	17	n/a	n/a	8
231.728	n/a	115864	dot_no7_OFF	27	n/a	n/a	8
233.048	n/a	116524	dot_no3_ON	13	n/a	n/a	8
233.628	n/a	116814	dot_no3_OFF	23	n/a	n/a	8
234.948	n/a	117474	dot_no8_ON	18	n/a	n/a	8
235.528	n/a	117764	dot_no8_OFF	28	n/a	n/a	8
236.848	n/a	118424	dot_no5_ON	15	n/a	n/a	8
237.428	n/a	118714	dot_no5_OFF	25	n/a	n/a	8
238.748	n/a	119374	dot_no2_ON	12	n/a	n/a	8
239.328	n/a	119664	dot_no2_OFF	22	n/a	n/a	8
240.648	n/a	120324	dot_no7_ON	17	n/a	n/a	8
241.238	n/a	120619	dot_no7_OFF	27	1-6-4-5-3-8-2-7-3-1	1-6-4-2-7-3-8-5-2-7	8
258.582	n/a	129291	seqLearning_stop	50	n/a	n/a	8
265.629	n/a	132814.5	boundary	boundary	n/a	n/a	8
