onset	duration	sample	value	event_code	user_answer	correct_answer	target_count
0	n/a	0	break cnt	break cnt	n/a	n/a	6
50.154	n/a	25077	seqLearning_start	91	n/a	n/a	6
56.45	n/a	28225	learningBlock_1	31	n/a	n/a	6
56.482	n/a	28241	dot_no1_ON	11	n/a	n/a	6
57.072	n/a	28536	dot_no1_OFF	21	n/a	n/a	6
58.39	n/a	29195	dot_no6_ON	16	n/a	n/a	6
58.97	n/a	29485	dot_no6_OFF	26	n/a	n/a	6
60.292	n/a	30146	dot_no4_ON	14	n/a	n/a	6
60.87	n/a	30435	dot_no4_OFF	24	n/a	n/a	6
62.192	n/a	31096	dot_no2_ON	12	n/a	n/a	6
62.77	n/a	31385	dot_no2_OFF	22	n/a	n/a	6
64.092	n/a	32046	dot_no3_ON	13	n/a	n/a	6
64.67	n/a	32335	dot_no3_OFF	23	n/a	n/a	6
65.99	n/a	32995	dot_no5_ON	15	n/a	n/a	6
66.57	n/a	33285	dot_no5_OFF	25	n/a	n/a	6
67.892	n/a	33946	dot_no2_ON	12	n/a	n/a	6
68.47	n/a	34235	dot_no2_OFF	22	1-6-4-3-2-5-5	1-6-4-2-3-5-2	6
121.404	n/a	60702	learningBlock_2	32	n/a	n/a	6
121.414	n/a	60707	dot_no1_ON	11	n/a	n/a	6
121.992	n/a	60996	dot_no1_OFF	21	n/a	n/a	6
123.312	n/a	61656	dot_no6_ON	16	n/a	n/a	6
123.892	n/a	61946	dot_no6_OFF	26	n/a	n/a	6
125.214	n/a	62607	dot_no4_ON	14	n/a	n/a	6
125.792	n/a	62896	dot_no4_OFF	24	n/a	n/a	6
127.112	n/a	63556	dot_no2_ON	12	n/a	n/a	6
127.692	n/a	63846	dot_no2_OFF	22	n/a	n/a	6
129.014	n/a	64507	dot_no3_ON	13	n/a	n/a	6
129.592	n/a	64796	dot_no3_OFF	23	n/a	n/a	6
130.914	n/a	65457	dot_no5_ON	15	n/a	n/a	6
131.494	n/a	65747	dot_no5_OFF	25	n/a	n/a	6
132.814	n/a	66407	dot_no2_ON	12	n/a	n/a	6
133.404	n/a	66702	dot_no2_OFF	22	1-6-4-3-2-5-2	1-6-4-2-3-5-2	6
182.016	n/a	91008	learningBlock_3	33	n/a	n/a	6
182.026	n/a	91013	dot_no1_ON	11	n/a	n/a	6
182.604	n/a	91302	dot_no1_OFF	21	n/a	n/a	6
183.926	n/a	91963	dot_no6_ON	16	n/a	n/a	6
184.504	n/a	92252	dot_no6_OFF	26	n/a	n/a	6
185.824	n/a	92912	dot_no4_ON	14	n/a	n/a	6
186.404	n/a	93202	dot_no4_OFF	24	n/a	n/a	6
187.724	n/a	93862	dot_no2_ON	12	n/a	n/a	6
188.306	n/a	94153	dot_no2_OFF	22	n/a	n/a	6
189.626	n/a	94813	dot_no3_ON	13	n/a	n/a	6
190.216	n/a	95108	dot_no3_OFF	23	n/a	n/a	6
191.536	n/a	95768	dot_no5_ON	15	n/a	n/a	6
192.126	n/a	96063	dot_no5_OFF	25	n/a	n/a	6
193.446	n/a	96723	dot_no2_ON	12	n/a	n/a	6
194.036	n/a	97018	dot_no2_OFF	22	1-6-4-3-2-5-2	1-6-4-2-3-5-2	6
220.418	n/a	110209	learningBlock_4	34	n/a	n/a	6
220.426	n/a	110213	dot_no1_ON	11	n/a	n/a	6
221.016	n/a	110508	dot_no1_OFF	21	n/a	n/a	6
222.336	n/a	111168	dot_no6_ON	16	n/a	n/a	6
222.916	n/a	111458	dot_no6_OFF	26	n/a	n/a	6
224.236	n/a	112118	dot_no4_ON	14	n/a	n/a	6
224.816	n/a	112408	dot_no4_OFF	24	n/a	n/a	6
226.136	n/a	113068	dot_no2_ON	12	n/a	n/a	6
226.716	n/a	113358	dot_no2_OFF	22	n/a	n/a	6
228.036	n/a	114018	dot_no3_ON	13	n/a	n/a	6
228.616	n/a	114308	dot_no3_OFF	23	n/a	n/a	6
229.936	n/a	114968	dot_no5_ON	15	n/a	n/a	6
230.526	n/a	115263	dot_no5_OFF	25	n/a	n/a	6
231.848	n/a	115924	dot_no2_ON	12	n/a	n/a	6
232.436	n/a	116218	dot_no2_OFF	22	1-6-4-2-3-5-2	1-6-4-2-3-5-2	6
257.428	n/a	128714	learningBlock_5	35	n/a	n/a	6
257.438	n/a	128719	dot_no1_ON	11	n/a	n/a	6
258.018	n/a	129009	dot_no1_OFF	21	n/a	n/a	6
259.338	n/a	129669	dot_no6_ON	16	n/a	n/a	6
259.918	n/a	129959	dot_no6_OFF	26	n/a	n/a	6
261.238	n/a	130619	dot_no4_ON	14	n/a	n/a	6
261.818	n/a	130909	dot_no4_OFF	24	n/a	n/a	6
263.138	n/a	131569	dot_no2_ON	12	n/a	n/a	6
263.718	n/a	131859	dot_no2_OFF	22	n/a	n/a	6
265.038	n/a	132519	dot_no3_ON	13	n/a	n/a	6
265.618	n/a	132809	dot_no3_OFF	23	n/a	n/a	6
266.938	n/a	133469	dot_no5_ON	15	n/a	n/a	6
267.518	n/a	133759	dot_no5_OFF	25	n/a	n/a	6
268.838	n/a	134419	dot_no2_ON	12	n/a	n/a	6
269.418	n/a	134709	dot_no2_OFF	22	1-6-4-2-3-5-2	1-6-4-2-3-5-2	6
293.57	n/a	146785	seqLearning_stop	50	n/a	n/a	6
294.177	n/a	147088.5	boundary	boundary	n/a	n/a	6
