onset	duration	sample	value	event_code	user_answer	correct_answer	target_count
0	n/a	0	break cnt	break cnt	n/a	n/a	8
29.1	n/a	14550	seqLearning_start	91	n/a	n/a	8
35.382	n/a	17691	learningBlock_1	31	n/a	n/a	8
35.42	n/a	17710	dot_no1_ON	11	n/a	n/a	8
36.008	n/a	18004	dot_no1_OFF	21	n/a	n/a	8
37.326	n/a	18663	dot_no6_ON	16	n/a	n/a	8
37.906	n/a	18953	dot_no6_OFF	26	n/a	n/a	8
39.226	n/a	19613	dot_no4_ON	14	n/a	n/a	8
39.816	n/a	19908	dot_no4_OFF	24	n/a	n/a	8
41.136	n/a	20568	dot_no2_ON	12	n/a	n/a	8
41.716	n/a	20858	dot_no2_OFF	22	n/a	n/a	8
43.036	n/a	21518	dot_no7_ON	17	n/a	n/a	8
43.626	n/a	21813	dot_no7_OFF	27	n/a	n/a	8
44.946	n/a	22473	dot_no3_ON	13	n/a	n/a	8
45.536	n/a	22768	dot_no3_OFF	23	n/a	n/a	8
46.856	n/a	23428	dot_no8_ON	18	n/a	n/a	8
47.446	n/a	23723	dot_no8_OFF	28	n/a	n/a	8
48.766	n/a	24383	dot_no5_ON	15	n/a	n/a	8
49.356	n/a	24678	dot_no5_OFF	25	n/a	n/a	8
50.676	n/a	25338	dot_no2_ON	12	n/a	n/a	8
51.266	n/a	25633	dot_no2_OFF	22	n/a	n/a	8
52.586	n/a	26293	dot_no7_ON	17	n/a	n/a	8
53.176	n/a	26588	dot_no7_OFF	27	1-6-5-4-8-3-7-3-7-3	1-6-4-2-7-3-8-5-2-7	8
120.288	n/a	60144	learningBlock_2	32	n/a	n/a	8
120.298	n/a	60149	dot_no1_ON	11	n/a	n/a	8
120.878	n/a	60439	dot_no1_OFF	21	n/a	n/a	8
122.198	n/a	61099	dot_no6_ON	16	n/a	n/a	8
122.778	n/a	61389	dot_no6_OFF	26	n/a	n/a	8
124.1	n/a	62050	dot_no4_ON	14	n/a	n/a	8
124.688	n/a	62344	dot_no4_OFF	24	n/a	n/a	8
126.008	n/a	63004	dot_no2_ON	12	n/a	n/a	8
126.588	n/a	63294	dot_no2_OFF	22	n/a	n/a	8
127.908	n/a	63954	dot_no7_ON	17	n/a	n/a	8
128.488	n/a	64244	dot_no7_OFF	27	n/a	n/a	8
129.81	n/a	64905	dot_no3_ON	13	n/a	n/a	8
130.398	n/a	65199	dot_no3_OFF	23	n/a	n/a	8
131.72	n/a	65860	dot_no8_ON	18	n/a	n/a	8
132.308	n/a	66154	dot_no8_OFF	28	n/a	n/a	8
133.63	n/a	66815	dot_no5_ON	15	n/a	n/a	8
134.22	n/a	67110	dot_no5_OFF	25	n/a	n/a	8
135.54	n/a	67770	dot_no2_ON	12	n/a	n/a	8
136.12	n/a	68060	dot_no2_OFF	22	n/a	n/a	8
137.44	n/a	68720	dot_no7_ON	17	n/a	n/a	8
138.03	n/a	69015	dot_no7_OFF	27	1-6-4-2-7-3-2-5-8-3	1-6-4-2-7-3-8-5-2-7	8
171.68	n/a	85840	learningBlock_3	33	n/a	n/a	8
171.69	n/a	85845	dot_no1_ON	11	n/a	n/a	8
172.27	n/a	86135	dot_no1_OFF	21	n/a	n/a	8
173.59	n/a	86795	dot_no6_ON	16	n/a	n/a	8
174.18	n/a	87090	dot_no6_OFF	26	n/a	n/a	8
175.5	n/a	87750	dot_no4_ON	14	n/a	n/a	8
176.09	n/a	88045	dot_no4_OFF	24	n/a	n/a	8
177.41	n/a	88705	dot_no2_ON	12	n/a	n/a	8
178	n/a	89000	dot_no2_OFF	22	n/a	n/a	8
179.322	n/a	89661	dot_no7_ON	17	n/a	n/a	8
179.9	n/a	89950	dot_no7_OFF	27	n/a	n/a	8
181.22	n/a	90610	dot_no3_ON	13	n/a	n/a	8
181.8	n/a	90900	dot_no3_OFF	23	n/a	n/a	8
183.12	n/a	91560	dot_no8_ON	18	n/a	n/a	8
183.7	n/a	91850	dot_no8_OFF	28	n/a	n/a	8
185.02	n/a	92510	dot_no5_ON	15	n/a	n/a	8
185.61	n/a	92805	dot_no5_OFF	25	n/a	n/a	8
186.932	n/a	93466	dot_no2_ON	12	n/a	n/a	8
187.52	n/a	93760	dot_no2_OFF	22	n/a	n/a	8
188.842	n/a	94421	dot_no7_ON	17	n/a	n/a	8
189.43	n/a	94715	dot_no7_OFF	27	1-6-2-3-7-4-8-6-7-5	1-6-4-2-7-3-8-5-2-7	8
227.384	n/a	113692	learningBlock_4	34	n/a	n/a	8
227.392	n/a	113696	dot_no1_ON	11	n/a	n/a	8
227.972	n/a	113986	dot_no1_OFF	21	n/a	n/a	8
229.292	n/a	114646	dot_no6_ON	16	n/a	n/a	8
229.882	n/a	114941	dot_no6_OFF	26	n/a	n/a	8
231.202	n/a	115601	dot_no4_ON	14	n/a	n/a	8
231.792	n/a	115896	dot_no4_OFF	24	n/a	n/a	8
233.112	n/a	116556	dot_no2_ON	12	n/a	n/a	8
233.702	n/a	116851	dot_no2_OFF	22	n/a	n/a	8
235.022	n/a	117511	dot_no7_ON	17	n/a	n/a	8
235.612	n/a	117806	dot_no7_OFF	27	n/a	n/a	8
236.932	n/a	118466	dot_no3_ON	13	n/a	n/a	8
237.512	n/a	118756	dot_no3_OFF	23	n/a	n/a	8
238.832	n/a	119416	dot_no8_ON	18	n/a	n/a	8
239.412	n/a	119706	dot_no8_OFF	28	n/a	n/a	8
240.732	n/a	120366	dot_no5_ON	15	n/a	n/a	8
241.312	n/a	120656	dot_no5_OFF	25	n/a	n/a	8
242.632	n/a	121316	dot_no2_ON	12	n/a	n/a	8
243.212	n/a	121606	dot_no2_OFF	22	n/a	n/a	8
244.534	n/a	122267	dot_no7_ON	17	n/a	n/a	8
245.112	n/a	122556	dot_no7_OFF	27	1-6-4-2-7-3-8-5-6-2	1-6-4-2-7-3-8-5-2-7	8
278.476	n/a	139238	learningBlock_5	35	n/a	n/a	8
278.484	n/a	139242	dot_no1_ON	11	n/a	n/a	8
279.074	n/a	139537	dot_no1_OFF	21	n/a	n/a	8
280.394	n/a	140197	dot_no6_ON	16	n/a	n/a	8
280.984	n/a	140492	dot_no6_OFF	26	n/a	n/a	8
282.304	n/a	141152	dot_no4_ON	14	n/a	n/a	8
282.894	n/a	141447	dot_no4_OFF	24	n/a	n/a	8
284.214	n/a	142107	dot_no2_ON	12	n/a	n/a	8
284.804	n/a	142402	dot_no2_OFF	22	n/a	n/a	8
286.124	n/a	143062	dot_no7_ON	17	n/a	n/a	8
286.714	n/a	143357	dot_no7_OFF	27	n/a	n/a	8
288.034	n/a	144017	dot_no3_ON	13	n/a	n/a	8
288.614	n/a	144307	dot_no3_OFF	23	n/a	n/a	8
289.934	n/a	144967	dot_no8_ON	18	n/a	n/a	8
290.524	n/a	145262	dot_no8_OFF	28	n/a	n/a	8
291.844	n/a	145922	dot_no5_ON	15	n/a	n/a	8
292.434	n/a	146217	dot_no5_OFF	25	n/a	n/a	8
293.754	n/a	146877	dot_no2_ON	12	n/a	n/a	8
294.344	n/a	147172	dot_no2_OFF	22	n/a	n/a	8
295.664	n/a	147832	dot_no7_ON	17	n/a	n/a	8
296.244	n/a	148122	dot_no7_OFF	27	1-6-4-2-7-3-8-5-2-1	1-6-4-2-7-3-8-5-2-7	8
324.856	n/a	162428	seqLearning_stop	50	n/a	n/a	8
325.525	n/a	162762.5	boundary	boundary	n/a	n/a	8
