onset	duration	sample	value	event_code	user_answer	correct_answer
0	n/a	0	break cnt	break cnt	n/a	n/a
28.904	n/a	14452	symbolSearch_start	92	n/a	n/a
31.828	n/a	15914	newPage	20	n/a	n/a
36.112	n/a	18056	trialResponse	14	0	0
39.206	n/a	19603	trialResponse	14	1	1
43.284	n/a	21642	trialResponse	14	0	0
49.238	n/a	24619	trialResponse	14	0	0
55.718	n/a	27859	trialResponse	14	0	0
59.064	n/a	29532	trialResponse	14	1	1
65.934	n/a	32967	trialResponse	14	0	0
73.078	n/a	36539	trialResponse	14	0	1
80.478	n/a	40239	trialResponse	14	0	0
86.262	n/a	43131	trialResponse	14	0	0
91.648	n/a	45824	trialResponse	14	0	0
98.222	n/a	49111	trialResponse	14	1	1
103.662	n/a	51831	trialResponse	14	0	0
109.846	n/a	54923	trialResponse	14	0	1
113.558	n/a	56779	trialResponse	14	1	1
114.862	n/a	57431	newPage	20	n/a	n/a
121.006	n/a	60503	trialResponse	14	1	1
127.214	n/a	63607	trialResponse	14	0	1
133.902	n/a	66951	trialResponse	14	0	0
142.75	n/a	71375	trialResponse	14	0	1
151.038	n/a	75519	trialResponse	14	1	0
172.31	n/a	86155	trialResponse	14	1	1
172.322	n/a	86161	newPage	20	n/a	n/a
174.989	n/a	87494.5	boundary	boundary	n/a	n/a
