onset	duration	sample	value	event_code	user_answer	correct_answer	target_count
0	n/a	0	break cnt	break cnt	n/a	n/a	8
2.918	n/a	1459	seqLearning_start	91	n/a	n/a	8
9.192	n/a	4596	learningBlock_1	31	n/a	n/a	8
9.22	n/a	4610	dot_no1_ON	11	n/a	n/a	8
9.808	n/a	4904	dot_no1_OFF	21	n/a	n/a	8
11.128	n/a	5564	dot_no6_ON	16	n/a	n/a	8
11.708	n/a	5854	dot_no6_OFF	26	n/a	n/a	8
13.028	n/a	6514	dot_no4_ON	14	n/a	n/a	8
13.608	n/a	6804	dot_no4_OFF	24	n/a	n/a	8
14.928	n/a	7464	dot_no2_ON	12	n/a	n/a	8
15.508	n/a	7754	dot_no2_OFF	22	n/a	n/a	8
16.828	n/a	8414	dot_no7_ON	17	n/a	n/a	8
17.408	n/a	8704	dot_no7_OFF	27	n/a	n/a	8
18.738	n/a	9369	dot_no3_ON	13	n/a	n/a	8
19.318	n/a	9659	dot_no3_OFF	23	n/a	n/a	8
20.638	n/a	10319	dot_no8_ON	18	n/a	n/a	8
21.218	n/a	10609	dot_no8_OFF	28	n/a	n/a	8
22.538	n/a	11269	dot_no5_ON	15	n/a	n/a	8
23.118	n/a	11559	dot_no5_OFF	25	n/a	n/a	8
24.438	n/a	12219	dot_no2_ON	12	n/a	n/a	8
25.018	n/a	12509	dot_no2_OFF	22	n/a	n/a	8
26.338	n/a	13169	dot_no7_ON	17	n/a	n/a	8
26.918	n/a	13459	dot_no7_OFF	27	1-6-8-4-3-7-2-5-1-7	1-6-4-2-7-3-8-5-2-7	8
53.42	n/a	26710	learningBlock_2	32	n/a	n/a	8
53.428	n/a	26714	dot_no1_ON	11	n/a	n/a	8
54.008	n/a	27004	dot_no1_OFF	21	n/a	n/a	8
55.328	n/a	27664	dot_no6_ON	16	n/a	n/a	8
55.908	n/a	27954	dot_no6_OFF	26	n/a	n/a	8
57.228	n/a	28614	dot_no4_ON	14	n/a	n/a	8
57.808	n/a	28904	dot_no4_OFF	24	n/a	n/a	8
59.13	n/a	29565	dot_no2_ON	12	n/a	n/a	8
59.708	n/a	29854	dot_no2_OFF	22	n/a	n/a	8
61.028	n/a	30514	dot_no7_ON	17	n/a	n/a	8
61.608	n/a	30804	dot_no7_OFF	27	n/a	n/a	8
62.928	n/a	31464	dot_no3_ON	13	n/a	n/a	8
63.518	n/a	31759	dot_no3_OFF	23	n/a	n/a	8
64.838	n/a	32419	dot_no8_ON	18	n/a	n/a	8
65.418	n/a	32709	dot_no8_OFF	28	n/a	n/a	8
66.74	n/a	33370	dot_no5_ON	15	n/a	n/a	8
67.32	n/a	33660	dot_no5_OFF	25	n/a	n/a	8
68.64	n/a	34320	dot_no2_ON	12	n/a	n/a	8
69.22	n/a	34610	dot_no2_OFF	22	n/a	n/a	8
70.54	n/a	35270	dot_no7_ON	17	n/a	n/a	8
71.12	n/a	35560	dot_no7_OFF	27	1-6-4-2-7-3-5-8-2-7	1-6-4-2-7-3-8-5-2-7	8
94.452	n/a	47226	learningBlock_3	33	n/a	n/a	8
94.46	n/a	47230	dot_no1_ON	11	n/a	n/a	8
95.04	n/a	47520	dot_no1_OFF	21	n/a	n/a	8
96.36	n/a	48180	dot_no6_ON	16	n/a	n/a	8
96.94	n/a	48470	dot_no6_OFF	26	n/a	n/a	8
98.26	n/a	49130	dot_no4_ON	14	n/a	n/a	8
98.84	n/a	49420	dot_no4_OFF	24	n/a	n/a	8
100.16	n/a	50080	dot_no2_ON	12	n/a	n/a	8
100.74	n/a	50370	dot_no2_OFF	22	n/a	n/a	8
102.06	n/a	51030	dot_no7_ON	17	n/a	n/a	8
102.64	n/a	51320	dot_no7_OFF	27	n/a	n/a	8
103.96	n/a	51980	dot_no3_ON	13	n/a	n/a	8
104.54	n/a	52270	dot_no3_OFF	23	n/a	n/a	8
105.86	n/a	52930	dot_no8_ON	18	n/a	n/a	8
106.45	n/a	53225	dot_no8_OFF	28	n/a	n/a	8
107.77	n/a	53885	dot_no5_ON	15	n/a	n/a	8
108.35	n/a	54175	dot_no5_OFF	25	n/a	n/a	8
109.67	n/a	54835	dot_no2_ON	12	n/a	n/a	8
110.25	n/a	55125	dot_no2_OFF	22	n/a	n/a	8
111.57	n/a	55785	dot_no7_ON	17	n/a	n/a	8
112.15	n/a	56075	dot_no7_OFF	27	1-6-4-2-7-3-8-5-2-7	1-6-4-2-7-3-8-5-2-7	8
133.452	n/a	66726	learningBlock_4	34	n/a	n/a	8
133.46	n/a	66730	dot_no1_ON	11	n/a	n/a	8
134.04	n/a	67020	dot_no1_OFF	21	n/a	n/a	8
135.36	n/a	67680	dot_no6_ON	16	n/a	n/a	8
135.94	n/a	67970	dot_no6_OFF	26	n/a	n/a	8
137.26	n/a	68630	dot_no4_ON	14	n/a	n/a	8
137.84	n/a	68920	dot_no4_OFF	24	n/a	n/a	8
139.16	n/a	69580	dot_no2_ON	12	n/a	n/a	8
139.74	n/a	69870	dot_no2_OFF	22	n/a	n/a	8
141.06	n/a	70530	dot_no7_ON	17	n/a	n/a	8
141.64	n/a	70820	dot_no7_OFF	27	n/a	n/a	8
142.96	n/a	71480	dot_no3_ON	13	n/a	n/a	8
143.54	n/a	71770	dot_no3_OFF	23	n/a	n/a	8
144.86	n/a	72430	dot_no8_ON	18	n/a	n/a	8
145.44	n/a	72720	dot_no8_OFF	28	n/a	n/a	8
146.76	n/a	73380	dot_no5_ON	15	n/a	n/a	8
147.352	n/a	73676	dot_no5_OFF	25	n/a	n/a	8
148.67	n/a	74335	dot_no2_ON	12	n/a	n/a	8
149.25	n/a	74625	dot_no2_OFF	22	n/a	n/a	8
150.57	n/a	75285	dot_no7_ON	17	n/a	n/a	8
151.15	n/a	75575	dot_no7_OFF	27	1-6-4-2-3-7-8-5-2-7	1-6-4-2-7-3-8-5-2-7	8
172.524	n/a	86262	learningBlock_5	35	n/a	n/a	8
172.532	n/a	86266	dot_no1_ON	11	n/a	n/a	8
173.112	n/a	86556	dot_no1_OFF	21	n/a	n/a	8
174.432	n/a	87216	dot_no6_ON	16	n/a	n/a	8
175.012	n/a	87506	dot_no6_OFF	26	n/a	n/a	8
176.332	n/a	88166	dot_no4_ON	14	n/a	n/a	8
176.912	n/a	88456	dot_no4_OFF	24	n/a	n/a	8
178.232	n/a	89116	dot_no2_ON	12	n/a	n/a	8
178.812	n/a	89406	dot_no2_OFF	22	n/a	n/a	8
180.132	n/a	90066	dot_no7_ON	17	n/a	n/a	8
180.712	n/a	90356	dot_no7_OFF	27	n/a	n/a	8
182.032	n/a	91016	dot_no3_ON	13	n/a	n/a	8
182.612	n/a	91306	dot_no3_OFF	23	n/a	n/a	8
183.932	n/a	91966	dot_no8_ON	18	n/a	n/a	8
184.512	n/a	92256	dot_no8_OFF	28	n/a	n/a	8
185.832	n/a	92916	dot_no5_ON	15	n/a	n/a	8
186.412	n/a	93206	dot_no5_OFF	25	n/a	n/a	8
187.732	n/a	93866	dot_no2_ON	12	n/a	n/a	8
188.312	n/a	94156	dot_no2_OFF	22	n/a	n/a	8
189.632	n/a	94816	dot_no7_ON	17	n/a	n/a	8
190.222	n/a	95111	dot_no7_OFF	27	1-6-4-2-7-3-8-5-2-7	1-6-4-2-7-3-8-5-2-7	8
212.596	n/a	106298	seqLearning_stop	50	n/a	n/a	8
218.825	n/a	109412.5	boundary	boundary	n/a	n/a	8
